wavelength	relativeIntensity
300	0.930483
305	1.128210
310	1.357690
315	1.622190
320	1.925080
325	2.269800
330	2.659810
335	3.098610
340	3.589680
345	4.136480
350	4.742380
355	5.410700
360	6.144620
365	6.947200
370	7.821350
375	8.769800
380	9.795100
385	10.899600
390	12.085300
395	13.354300
400	14.708000
405	16.148000
410	17.675300
415	19.290700
420	20.995000
425	22.788300
430	24.670900
435	26.642500
440	28.702700
445	30.850800
450	33.085900
455	35.406800
460	37.812100
465	40.300200
470	42.869300
475	45.517400
480	48.242300
485	51.041800
490	53.913200
495	56.853900
500	59.861100
505	62.932000
510	66.063500
515	69.252500
520	72.495900
525	75.790300
530	79.132600
535	82.519300
540	85.947000
545	89.412400
550	92.912000
555	96.442300
560	100.000000
565	103.582000
570	107.184000
575	110.803000
580	114.436000
585	118.080000
590	121.731000
595	125.386000
600	129.043000
605	132.697000
610	136.346000
615	139.988000
620	143.618000
625	147.235000
630	150.836000
635	154.418000
640	157.979000
645	161.516000
650	165.028000
655	168.510000
660	171.963000
665	175.383000
670	178.769000
675	182.118000
680	185.429000
685	188.701000
690	191.931000
695	195.118000
700	198.261000
705	201.359000
710	204.409000
715	207.411000
720	210.365000
725	213.268000
730	216.120000
735	218.920000
740	221.667000
745	224.361000
750	227.000000
755	229.585000
760	232.115000
765	234.589000
770	237.008000
775	239.370000
780	241.675000
